onset	duration	sample	value	event_code	user_answer	correct_answer
0	n/a	0	break cnt	break cnt	n/a	n/a
30.628	n/a	15314	symbolSearch_start	92	n/a	n/a
33.528	n/a	16764	newPage	20	n/a	n/a
44.904	n/a	22452	trialResponse	14	0	0
49.3	n/a	24650	trialResponse	14	1	1
56.432	n/a	28216	trialResponse	14	0	0
60.952	n/a	30476	trialResponse	14	0	0
69.568	n/a	34784	trialResponse	14	0	0
73.528	n/a	36764	trialResponse	14	1	1
78.568	n/a	39284	trialResponse	14	0	0
83.056	n/a	41528	trialResponse	14	1	1
88.504	n/a	44252	trialResponse	14	0	0
94.168	n/a	47084	trialResponse	14	0	0
98.56	n/a	49280	trialResponse	14	0	0
101	n/a	50500	trialResponse	14	1	1
104.008	n/a	52004	trialResponse	14	0	0
107.368	n/a	53684	trialResponse	14	1	1
109.992	n/a	54996	trialResponse	14	1	1
111.64	n/a	55820	newPage	20	n/a	n/a
121.336	n/a	60668	trialResponse	14	1	1
125.792	n/a	62896	trialResponse	14	1	1
131.592	n/a	65796	trialResponse	14	0	0
139.528	n/a	69764	trialResponse	14	0	1
147.088	n/a	73544	trialResponse	14	1	0
150.864	n/a	75432	trialResponse	14	1	1
157.688	n/a	78844	trialResponse	14	0	0
157.692	n/a	78846	newPage	20	n/a	n/a
160.275	n/a	80137.5	boundary	boundary	n/a	n/a
