onset	duration	sample	value	event_code	user_answer	correct_answer
0	n/a	0	break cnt	break cnt	n/a	n/a
33.972	n/a	16986	symbolSearch_start	92	n/a	n/a
36.876	n/a	18438	newPage	20	n/a	n/a
43.16	n/a	21580	trialResponse	14	0	0
47.028	n/a	23514	trialResponse	14	0	1
50.464	n/a	25232	trialResponse	14	0	0
55.62	n/a	27810	trialResponse	14	0	0
65.5	n/a	32750	trialResponse	14	1	0
71.86	n/a	35930	trialResponse	14	0	1
80.816	n/a	40408	trialResponse	14	0	0
89.324	n/a	44662	trialResponse	14	1	1
98.928	n/a	49464	trialResponse	14	0	0
104.244	n/a	52122	trialResponse	14	0	0
115.216	n/a	57608	trialResponse	14	0	0
123.648	n/a	61824	trialResponse	14	1	1
130.64	n/a	65320	trialResponse	14	0	0
134.404	n/a	67202	trialResponse	14	1	1
136.812	n/a	68406	trialResponse	14	0	1
138.896	n/a	69448	newPage	20	n/a	n/a
144.696	n/a	72348	trialResponse	14	1	1
150.304	n/a	75152	trialResponse	14	0	1
158.588	n/a	79294	trialResponse	14	0	0
158.596	n/a	79298	newPage	20	n/a	n/a
161.183	n/a	80591.5	boundary	boundary	n/a	n/a
