onset	duration	sample	value	event_code	user_answer	correct_answer
0	n/a	0	break cnt	break cnt	n/a	n/a
45.256	n/a	22628	symbolSearch_start	92	n/a	n/a
48.128	n/a	24064	newPage	20	n/a	n/a
54.64	n/a	27320	trialResponse	14	0	0
60.156	n/a	30078	trialResponse	14	1	1
65.108	n/a	32554	trialResponse	14	0	0
79.06	n/a	39530	trialResponse	14	0	0
85.336	n/a	42668	trialResponse	14	1	0
92.968	n/a	46484	trialResponse	14	1	1
102.576	n/a	51288	trialResponse	14	0	0
113.528	n/a	56764	trialResponse	14	1	1
122.7	n/a	61350	trialResponse	14	0	0
129.528	n/a	64764	trialResponse	14	0	0
140.108	n/a	70054	trialResponse	14	0	0
145.036	n/a	72518	trialResponse	14	1	1
152.704	n/a	76352	trialResponse	14	0	0
161.552	n/a	80776	trialResponse	14	0	1
168.612	n/a	84306	trialResponse	14	0	1
168.62	n/a	84310	newPage	20	n/a	n/a
171.319	n/a	85659.5	boundary	boundary	n/a	n/a
